images,correctAns,trials.thisRepN,trials.thisTrialN,trials.thisN,trials.thisIndex,trials_2.thisRepN,trials_2.thisTrialN,trials_2.thisN,trials_2.thisIndex,Fixation1.started,Fixation1.stopped,Trial1.started,Trial1.stopped,key_resp.keys,key_resp.corr,key_resp.started,key_resp.stopped,key_resp.rt,Fixation2.started,Fixation2.stopped,Trial2.started,Trial2.stopped,key_resp_2.keys,key_resp_2.corr,key_resp_2.rt,key_resp_2.started,key_resp_2.stopped,participant,session,date,expName,psychopyVersion,frameRate,
Task samples\相同位置及边数2.png,1,0,0,0,10,,,,,59.53958690003492,60.54059560003225,60.54059560003225,None,None,0,1.0149198399158195,None,,,,,,,,,,,,001,2021_Aug_18_1623,Demo,2021.2.1,59.6830709474172,
Task samples\相同颜色及位置9.png,1,0,1,1,7,,,,,68.54616830009036,69.59241050004493,69.59241050004493,None,None,0,1.0304299700073898,None,,,,,,,,,,,,001,2021_Aug_18_1623,Demo,2021.2.1,59.6830709474172,
Task samples\相同颜色及位置10.png,2,0,2,2,8,,,,,77.5575868000742,78.55835579999257,78.52520610007923,86.53296410001349,None,0,1.000886739930138,None,,,,,,,,,,,,001,2021_Aug_18_1623,Demo,2021.2.1,59.6830709474172,
Task samples\相同颜色及边数2.png,1,0,3,3,20,,,,,86.56983210006729,87.5705953000579,87.55392030009534,None,None,0,1.0077023400226608,None,,,,,,,,,,,,001,2021_Aug_18_1623,Demo,2021.2.1,59.6830709474172,
Task samples\相同颜色及位置2.png,2,0,4,4,0,,,,,95.54531549999956,96.54607690009288,96.54607690009288,None,None,0,1.0083892699331045,None,,,,,,,,,,,,001,2021_Aug_18_1623,Demo,2021.2.1,59.6830709474172,
Task samples\相同位置及边数8.png,1,0,5,5,16,,,,,104.55833980010357,105.55823830002919,105.52566790010314,None,1,1,1.0037556398892775,None,6.526162499911152,,,,,,,,,,,001,2021_Aug_18_1623,Demo,2021.2.1,59.6830709474172,
Task samples\相同位置及边数1.png,1,0,6,6,9,,,,,112.10171240009367,113.10257500002626,113.06899390008766,None,2,0,1.015668139909394,None,0.07735279994085431,,,,,,,,,,,001,2021_Aug_18_1623,Demo,2021.2.1,59.6830709474172,
Task samples\相同颜色及边数6.png,1,0,7,7,24,,,,,113.20693990006112,114.20769629999995,114.19173120008782,None,2,0,1.0159917400451377,None,0.07547430007252842,,,,,,,,,,,001,2021_Aug_18_1623,Demo,2021.2.1,59.6830709474172,
Task samples\相同颜色及边数7.png,2,0,8,8,25,,,,,114.31202720000874,115.31251790001988,115.27938840002753,None,2,1,0.9996133401291445,None,0.1716711000772193,,,,,,,,,,,001,2021_Aug_18_1623,Demo,2021.2.1,59.6830709474172,
Task samples\相同位置及边数7.png,1,0,9,9,15,,,,,115.50037260004319,116.50121830007993,116.48463700001594,None,2,0,1.0137765399413183,None,0.15045780001673847,,,,,,,,,,,001,2021_Aug_18_1623,Demo,2021.2.1,59.6830709474172,
Task samples\相同颜色及位置4.png,1,0,10,10,2,,,,,116.65555150003638,117.65624470007606,117.65624470007606,None,1,1,1.00585896987468,None,0.09881080000195652,,,,,,,,,,,001,2021_Aug_18_1623,Demo,2021.2.1,59.6830709474172,
Task samples\相同位置及边数3.png,2,0,11,11,11,,,,,117.793880000012,118.79468940000515,118.76132930000313,None,1,0,0.9993768400745466,None,0.05098479997832328,,,,,,,,,,,001,2021_Aug_18_1623,Demo,2021.2.1,59.6830709474172,
Task samples\相同颜色及边数3.png,2,0,12,12,21,,,,,118.84965240000747,119.84982030000538,119.83392430003732,None,1,0,1.0154820398893207,None,0.06603420001920313,,,,,,,,,,,001,2021_Aug_18_1623,Demo,2021.2.1,59.6830709474172,
Task samples\相同位置及边数5.png,1,0,13,13,13,,,,,119.93748700001743,120.93903020001017,120.92238150001504,None,1,1,1.0165564399212599,None,0.04053410002961755,,,,,,,,,,,001,2021_Aug_18_1623,Demo,2021.2.1,59.6830709474172,
Task samples\相同颜色及位置7.png,1,0,14,14,5,,,,,121.00930030003656,122.01076120010111,121.97751760005485,None,1,1,0.9998450400307775,None,0.24175639997702092,,,,,,,,,,,001,2021_Aug_18_1623,Demo,2021.2.1,59.6830709474172,
Task samples\相同颜色及边数4.png,2,0,15,15,22,,,,,122.26461690000724,123.26530500000808,123.23186749999877,None,2,1,0.9991624400718138,None,0.051332400063984096,,,,,,,,,,,001,2021_Aug_18_1623,Demo,2021.2.1,59.6830709474172,
Task samples\相同颜色及位置8.png,2,0,16,16,6,,,,,123.32042340002954,124.32037660002243,124.28707530000247,None,1,0,0.999344740062952,None,0.06829570000991225,,,,,,,,,,,001,2021_Aug_18_1623,Demo,2021.2.1,59.6830709474172,
Task samples\相同位置及边数6.png,2,0,17,17,14,,,,,124.39142160001211,125.39216930000111,125.37550280010328,None,None,0,0.9992400399642065,9.00655354000628,,,,,,,,,,,,001,2021_Aug_18_1623,Demo,2021.2.1,59.6830709474172,
Task samples\相同颜色及位置3.png,2,0,18,18,1,,,,,133.38641640008427,134.38703740003984,134.38703740003984,133.38641640008427,1,0,1.0059339699801058,None,0.008097999962046742,,,,,,,,,,,001,2021_Aug_18_1623,Demo,2021.2.1,59.6830709474172,
Task samples\相同颜色及边数5.png,1,0,19,19,23,,,,,134.44149900006596,135.44218160002492,135.4255104000913,None,1,1,1.0147084400523454,None,0.05093470006249845,,,,,,,,,,,001,2021_Aug_18_1623,Demo,2021.2.1,59.6830709474172,
Task samples\相同颜色及位置5.png,1,0,20,20,3,,,,,135.49665790004656,136.49793519999366,136.48252580000553,None,1,1,1.0049494398990646,None,0.17681059997994453,,,,,,,,,,,001,2021_Aug_18_1623,Demo,2021.2.1,59.6830709474172,
Task samples\相同位置及边数4.png,1,0,21,21,12,,,,,136.69782780006062,137.69922770000994,137.68256900005508,None,1,1,1.0113196399761364,None,0.18625640007667243,,,,,,,,,,,001,2021_Aug_18_1623,Demo,2021.2.1,59.6830709474172,
Task samples\相同颜色及边数10.png,2,0,22,22,28,,,,,137.9204039000906,138.92031680000946,138.9035805000458,None,1,0,1.0150521401083097,None,0.355714000063017,,,,,,,,,,,001,2021_Aug_18_1623,Demo,2021.2.1,59.6830709474172,
Task samples\相同位置及边数9.png,2,0,23,23,17,,,,,139.3091019000858,140.3089167000726,140.27577350009233,None,1,0,1.0004407400265336,None,0.22303640004247427,,,,,,,,,,,001,2021_Aug_18_1623,Demo,2021.2.1,59.6830709474172,
Task samples\相同位置及边数10.png,1,0,24,24,18,,,,,140.54678170010448,141.54847720009275,141.51431440003216,None,2,0,0.9994552400894463,None,0.05718730005901307,,,,,,,,,,,001,2021_Aug_18_1623,Demo,2021.2.1,59.6830709474172,
Task samples\相同颜色及边数8.png,1,0,25,25,26,,,,,141.61951640003826,142.61927920009475,142.58601500000805,None,1,1,0.9995634399820119,None,0.09832079999614507,,,,,,,,,,,001,2021_Aug_18_1623,Demo,2021.2.1,59.6830709474172,
Task samples\相同颜色及边数9.png,1,0,26,26,27,,,,,142.7238358000759,143.7244632000802,143.70868380006868,None,2,0,0.9992054401664063,None,0.11193809995893389,,,,,,,,,,,001,2021_Aug_18_1623,Demo,2021.2.1,59.6830709474172,
Task samples\相同颜色及边数1.png,1,0,27,27,19,,,,,143.84557210002095,144.84629210003186,144.81292830000166,None,1,1,0.9993155400734395,None,0.05429729993920773,,,,,,,,,,,001,2021_Aug_18_1623,Demo,2021.2.1,59.6830709474172,
Task samples\相同颜色及位置6.png,2,0,28,28,4,,,,,144.9182448000647,145.91796210000757,145.88461700000335,None,2,1,1.0031287398887798,None,0.10238910000771284,,,,,,,,,,,001,2021_Aug_18_1623,Demo,2021.2.1,59.6830709474172,
Task samples\相同的位置规律 1.png,1,,,,,0,0,0,19,,,,,,,,,,146.0392170000123,147.04072580009233,147.0232719000196,None,2,0,0.09203040006104857,1.0054032399784774,None,,001,2021_Aug_18_1623,Demo,2021.2.1,59.6830709474172,
Task samples\相同的数列规律 6.png,1,,,,,0,1,1,14,,,,,,,,,,147.16091630002484,148.16165080002975,148.12842470000032,156.1355281000724,None,0,,1.0023092400515452,9.009132839972153,,001,2021_Aug_18_1623,Demo,2021.2.1,59.6830709474172,
Task samples\相同的数列规律 4.png,2,,,,,0,2,2,12,,,,,,,,,,156.15472960006446,157.1553158001043,157.1553158001043,165.16266250004992,None,0,,1.006543470080942,9.013889770023525,,001,2021_Aug_18_1623,Demo,2021.2.1,59.6830709474172,
Task samples\相同的位置规律 7.png,1,,,,,0,3,3,25,,,,,,,,,,165.18239269999322,166.18292450008448,166.18292450008448,174.19028690003324,None,0,,1.0056945700198412,9.013052870053798,,001,2021_Aug_18_1623,Demo,2021.2.1,59.6830709474172,
Task samples\相同的数列规律 7.png,2,,,,,0,4,4,15,,,,,,,,,,174.20997210009955,175.2108126000967,175.2108126000967,183.21791490004398,None,0,,1.0058912698877975,9.013015269883908,,001,2021_Aug_18_1623,Demo,2021.2.1,59.6830709474172,
Task samples\相同的位置规律 6.png,2,,,,,0,5,5,24,,,,,,,,,,183.23764100007247,184.23834190005437,184.23834190005437,192.24555240001064,None,0,,1.0056191699113697,9.012823369936086,,001,2021_Aug_18_1623,Demo,2021.2.1,59.6830709474172,
